Folder: NeXLMatrixCorrection/weave/spectra

Note: README.md
# NeXLMatrixCorrection

Electron probe microanalysis matrix correction algorithms within the NeXL framework

This is very much a work in progress.  Do not use!!! (yet)

File: Al2O3_StdC_15kV7p5nA130kHz_300s.msa
#FORMAT      : EMSA/MAS Spectral Data File
#VERSION     : 1.0
#TITLE       : Bruker Nano spectrum Acquisition
#DATE        : 31-DEC-1969
#TIME        : 07:00
#OWNER       : Bruker Nano
#NPOINTS     : 4096
#NCOLUMNS    : 1
#XUNITS      : eV
#YUNITS      : counts
#DATATYPE    : Y
#XPERCHAN    : 5.00332
#OFFSET      : -482.834
#BEAMKV      : 15
#SIGNALTYPE  : EDS
#ELEVANGLE   : 40
#AZIMANGLE   : 45
#LIVETIME    : 300
#REALTIME    : 353.979
#PROBECUR    : 7.5
#TAUWIND     : 0
#TDEADLYR    : 0
#TACTLYR     : 0.045
#TALWIND     : 0.004
#CHOFFSET    : 0.0
#XLABEL      : Energy (eV)
#YLABEL      : Counts
#EDSDET      : SDUTW
##SPECIMEN   : Al2O3_StdC_15kV7p5nA130kHz_300s
##D2STDCMP   : Al2O3,(O:47.0749),(Al:52.9251),3.97
##DET_HASH   : c6370f9e-cc72-7559-f57e-203d75c8942b
##CALIB_HASH : b7972ae8-4123-2fc4-0a4f-7316ec9026e4
##SAMPLE     : <BulkSample id="1">\n<mOrientation id="2">\n<double>0.0</double>\n<double>0.0</double>\n<double>-1.0</double>\n</mOrientation>\n</BulkSample>
#SPECTRUM    :
0,
0,
0,
0,
9,
40,
5699,
418441,
179,
1067,
2224,
11571,
2133,
5246,
204095,
57073,
2795,
3644,
4237,
5412,
5853,
6684,
7260,
7875,
8596,
10248,
12706,
52946,
869673,
172127,
8836,
4558,
4961,
4111,
4057,
4468,
4208,
4066,
3980,
4025,
4242,
3845,
3866,
3806,
3748,
3593,
3641,
3504,
3183,
3053,
3065,
3067,
3096,
2939,
2959,
2904,
2817,
2722,
2753,
2891,
2927,
2518,
2425,
2362,
2392,
2267,
2145,
2155,
2120,
1985,
2044,
1948,
1917,
1909,
1846,
1762,
1766,
1639,
1620,
1589,
1588,
1545,
1560,
1471,
1452,
1415,
1421,
1389,
1272,
1380,
1274,
1236,
1223,
1119,
1157,
1125,
1088,
1096,
1035,
1079,
1016,
970,
950,
941,
916,
903,
879,
883,
874,
842,
759,
805,
781,
740,
765,
721,
716,
685,
703,
734,
691,
628,
627,
585,
611,
612,
594,
518,
507,
555,
538,
500,
514,
496,
477,
458,
437,
415,
417,
438,
448,
418,
407,
391,
393,
383,
357,
344,
348,
313,
296,
358,
304,
348,
309,
302,
276,
278,
276,
266,
252,
235,
256,
211,
178,
195,
173,
183,
180,
182,
157,
178,
157,
153,
178,
145,
161,
138,
137,
125,
135,
112,
124,
107,
112,
136,
115,
91,
102,
100,
100,
77,
74,
88,
77,
55,
72,
51,
53,
48,
36,
53,
35,
42,
41,
22,
38,
39,
27,
20,
21,
21,
18,
11,
11,
7,
12,
10,
10,
4,
7,
7,
1,
2,
2,
0,
1,
0,
1,
1,
1,
0,
2,
0,
0,
0,
1,
1,
0,
0,
1,
0,
0,
0,
0,
0,
0,
0,
0,
0,
0,
0,
0,
0,
0,
0,
0,
1,
0,
1,
0,
0,
0,
1,
0,
0,
0,
0,
0,
0,
0,
0,
0,
0,
0,
0,
0,
0,
0,
1,
0,
0,
0,
0,
0,
0,
0,
0,
0,
0,
0,
0,
0,
0,
#ENDOFDATA   :

File: C_StdC_15kV7p5nA130kHz_48kHz9DT_100s.msa
#FORMAT      : EMSA/MAS Spectral Data File
#VERSION     : 1.0
#TITLE       : Bruker Nano spectrum Acquisition
#DATE        : 03-OCT-2019
#TIME        : 08:38
#OWNER       : Bruker Nano
#NPOINTS     : 4096
#NCOLUMNS    : 1
#XUNITS      : eV
#YUNITS      : counts
#DATATYPE    : Y
#XPERCHAN    : 5.00332
#OFFSET      : -482.834
#BEAMKV      : 15
#SIGNALTYPE  : EDS
#ELEVANGLE   : 40
#AZIMANGLE   : 45
#LIVETIME    : 100
#REALTIME    : 109.577
#PROBECUR    : 7.5
#TAUWIND     : 0
#TDEADLYR    : 0
#TACTLYR     : 0.045
#TALWIND     : 0.004
#CHOFFSET    : 0.0
#XLABEL      : Energy (eV)
#YLABEL      : Counts
#EDSDET      : SDUTW
##D2STDCMP   : C,(C:100.0),2.0
##DET_HASH   : c6370f9e-cc72-7559-f57e-203d75c8942b
##CALIB_HASH : b7972ae8-4123-2fc4-0a4f-7316ec9026e4
##SAMPLE     : <BulkSample id="1">\n<mOrientation id="2">\n<double>0.0</double>\n<double>0.0</double>\n<double>-1.0</double>\n</mOrientation>\n</BulkSample>
#SPECTRUM    :
0,
0,
0,
0,
2,
0,
1136,
82907,
127,
88,
22055,
269520,
1103,
545,
2209,
800,
534,
780,
909,
1040,
1234,
1457,
1515,
1520,
1542,
1648,
1632,
1610,
1577,
1427,
1309,
1441,
1566,
1250,
1188,
1172,
1067,
1034,
1028,
980,
1113,
943,
837,
908,
853,
784,
790,
784,
728,
690,
640,
673,
595,
587,
567,
573,
516,
551,
525,
548,
570,
467,
454,
430,
415,
424,
398,
403,
368,
376,
379,
363,
323,
340,
322,
315,
304,
315,
273,
279,
268,
253,
249,
282,
227,
242,
225,
209,
206,
244,
207,
224,
188,
190,
155,
170,
141,
179,
170,
159,
170,
178,
158,
160,
131,
136,
144,
143,
136,
128,
157,
114,
126,
127,
116,
99,
117,
109,
110,
94,
94,
104,
85,
69,
93,
100,
91,
81,
86,
87,
86,
81,
80,
80,
73,
74,
66,
74,
62,
70,
48,
57,
67,
53,
51,
53,
41,
61,
43,
55,
50,
47,
35,
47,
39,
36,
36,
34,
26,
31,
32,
27,
32,
31,
36,
26,
18,
29,
32,
25,
22,
26,
23,
27,
26,
14,
28,
17,
28,
20,
11,
9,
16,
18,
12,
14,
18,
20,
17,
12,
12,
13,
14,
7,
10,
6,
10,
9,
8,
12,
7,
4,
6,
3,
4,
3,
6,
6,
5,
3,
7,
5,
1,
2,
3,
2,
1,
2,
1,
3,
0,
0,
0,
0,
0,
0,
0,
0,
0,
0,
0,
0,
0,
0,
0,
0,
0,
0,
0,
0,
0,
0,
0,
0,
0,
0,
0,
0,
0,
0,
0,
0,
0,
0,
0,
0,
0,
1,
0,
0,
0,
0,
0,
0,
0,
0,
0,
0,
0,
0,
0,
0,
0,
0,
0,
0,
0,
0,
0,
0,
0,
0,
0,
0,
0,
0,
0,
0,
0,
0,
0,
0,
0,
0,
#ENDOFDATA   :

File: Si_StdC_15kV7p5nA130kHz_132kHz24DT_100s.msa
#FORMAT      : EMSA/MAS Spectral Data File
#VERSION     : 1.0
#TITLE       : Bruker Nano spectrum Acquisition
#DATE        : 03-OCT-2019
#TIME        : 08:41
#OWNER       : Bruker Nano
#NPOINTS     : 4096
#NCOLUMNS    : 1
#XUNITS      : eV
#YUNITS      : counts
#DATATYPE    : Y
#XPERCHAN    : 5.00332
#OFFSET      : -482.834
#BEAMKV      : 15
#SIGNALTYPE  : EDS
#ELEVANGLE   : 40
#AZIMANGLE   : 45
#LIVETIME    : 100
#REALTIME    : 131.844
#PROBECUR    : 7.5
#TAUWIND     : 0
#TDEADLYR    : 0
#TACTLYR     : 0.045
#TALWIND     : 0.004
#CHOFFSET    : 0.0
#XLABEL      : Energy (eV)
#YLABEL      : Counts
#EDSDET      : SDUTW
##D2STDCMP   : Si,(Si:100.0),2.33
##DET_HASH   : c6370f9e-cc72-7559-f57e-203d75c8942b
##CALIB_HASH : b7972ae8-4123-2fc4-0a4f-7316ec9026e4
##SAMPLE     : <BulkSample id="1">\n<mOrientation id="2">\n<double>0.0</double>\n<double>0.0</double>\n<double>-1.0</double>\n</mOrientation>\n</BulkSample>
#SPECTRUM    :
0,
0,
0,
0,
2,
45,
3928,
277539,
168,
413,
750,
4055,
526,
702,
1837,
1543,
1972,
2501,
2953,
3459,
3789,
3937,
4063,
4142,
4044,
4251,
4251,
4490,
5374,
5880,
6372,
177704,
481919,
42976,
6278,
1570,
1389,
1271,
1299,
1369,
1372,
1368,
1366,
1325,
1277,
1313,
1282,
1286,
1185,
1214,
1186,
1192,
1157,
1122,
1108,
1037,
1033,
1028,
1005,
1087,
1139,
1011,
1018,
970,
929,
941,
917,
894,
890,
823,
828,
832,
819,
792,
720,
702,
728,
729,
715,
687,
702,
643,
668,
634,
615,
548,
565,
559,
598,
575,
537,
536,
515,
518,
493,
492,
492,
484,
434,
451,
451,
433,
430,
436,
441,
390,
385,
394,
363,
415,
397,
336,
349,
337,
354,
343,
345,
278,
308,
307,
286,
295,
281,
268,
278,
284,
259,
272,
270,
212,
253,
252,
217,
211,
207,
221,
210,
208,
189,
173,
201,
200,
200,
173,
152,
196,
167,
181,
155,
165,
158,
149,
145,
160,
123,
128,
127,
147,
123,
133,
108,
115,
105,
110,
100,
97,
92,
102,
80,
72,
83,
85,
81,
78,
73,
80,
70,
64,
77,
67,
61,
48,
53,
59,
47,
58,
48,
49,
47,
36,
49,
31,
42,
46,
36,
40,
34,
29,
28,
24,
21,
27,
25,
22,
18,
20,
17,
15,
16,
17,
13,
10,
13,
6,
6,
5,
6,
3,
2,
5,
5,
2,
0,
2,
0,
0,
0,
1,
0,
0,
0,
0,
0,
0,
1,
0,
0,
0,
0,
1,
2,
0,
0,
1,
1,
0,
0,
0,
0,
1,
0,
0,
0,
0,
0,
0,
1,
0,
0,
0,
0,
0,
0,
1,
0,
0,
0,
0,
0,
0,
0,
1,
0,
0,
0,
0,
0,
0,
0,
1,
0,
0,
0,
0,
0,
0,
0,
0,
0,
0,
0,
0,
0,
0,
#ENDOFDATA   :

File: SiO2_StdC_15kV7p5nA130kHz_300s.msa
#FORMAT      : EMSA/MAS Spectral Data File
#VERSION     : 1.0
#TITLE       : Bruker Nano spectrum Acquisition
#DATE        : 31-DEC-1969
#TIME        : 07:00
#OWNER       : Bruker Nano
#NPOINTS     : 4096
#NCOLUMNS    : 1
#XUNITS      : eV
#YUNITS      : counts
#DATATYPE    : Y
#XPERCHAN    : 5.00332
#OFFSET      : -482.834
#BEAMKV      : 15
#SIGNALTYPE  : EDS
#ELEVANGLE   : 40
#AZIMANGLE   : 45
#LIVETIME    : 300
#REALTIME    : 347.996
#PROBECUR    : 7.5
#TAUWIND     : 0
#TDEADLYR    : 0
#TACTLYR     : 0.045
#TALWIND     : 0.004
#CHOFFSET    : 0.0
#XLABEL      : Energy (eV)
#YLABEL      : Counts
#EDSDET      : SDUTW
##SPECIMEN   : SiO2_StdC_15kV7p5nA130kHz_300s
##D2STDCMP   : SiO2,(O:53.2565),(Si:46.7435),2.63
##DET_HASH   : c6370f9e-cc72-7559-f57e-203d75c8942b
##CALIB_HASH : b7972ae8-4123-2fc4-0a4f-7316ec9026e4
##SAMPLE     : <BulkSample id="1">\n<mOrientation id="2">\n<double>0.0</double>\n<double>0.0</double>\n<double>-1.0</double>\n</mOrientation>\n</BulkSample>
#SPECTRUM    :
0,
0,
0,
0,
8,
29,
5752,
418100,
169,
972,
2110,
10944,
2099,
5177,
201870,
56954,
2761,
3448,
4001,
4945,
5398,
6255,
6618,
7047,
7269,
7697,
7985,
8305,
9432,
9984,
10335,
222345,
630044,
56140,
8914,
4153,
3964,
3905,
4169,
4122,
4035,
3902,
3787,
3791,
3659,
3561,
3561,
3525,
3247,
3276,
3235,
3148,
3090,
2999,
2976,
2847,
2714,
2649,
2616,
2924,
3011,
2539,
2444,
2429,
2290,
2304,
2222,
2201,
2024,
2049,
1984,
1968,
1926,
1844,
1868,
1794,
1689,
1695,
1675,
1637,
1598,
1566,
1501,
1486,
1452,
1410,
1392,
1381,
1325,
1274,
1351,
1259,
1251,
1217,
1193,
1178,
1073,
1097,
1082,
1057,
1068,
1027,
998,
914,
919,
987,
943,
847,
838,
817,
848,
770,
761,
819,
783,
740,
756,
749,
758,
678,
644,
689,
617,
612,
620,
582,
563,
595,
558,
589,
547,
526,
502,
545,
480,
470,
430,
438,
491,
476,
373,
425,
419,
400,
405,
399,
362,
344,
355,
344,
332,
327,
305,
324,
311,
294,
277,
270,
298,
264,
254,
241,
229,
273,
233,
221,
202,
201,
208,
178,
173,
183,
174,
190,
173,
155,
157,
168,
137,
143,
132,
137,
114,
99,
123,
106,
92,
86,
82,
110,
93,
93,
88,
67,
75,
68,
55,
60,
52,
52,
52,
53,
46,
46,
37,
42,
26,
20,
34,
30,
36,
22,
13,
21,
15,
14,
10,
7,
6,
7,
5,
4,
3,
1,
0,
0,
1,
2,
2,
1,
1,
0,
0,
0,
0,
0,
0,
0,
0,
0,
0,
0,
1,
0,
0,
2,
0,
0,
0,
0,
0,
0,
0,
0,
0,
0,
0,
0,
0,
0,
0,
0,
0,
0,
0,
0,
0,
0,
0,
0,
0,
0,
0,
0,
0,
0,
0,
0,
0,
0,
0,
0,
0,
0,
0,
0,
0,
0,
0,
1,
0,
0,
0,
0,
#ENDOFDATA   :